sep=,
DeviceTag:,Xsens DOT
FirmwareVersion:,2.1.0
AppVersion:,2021.0
SyncStatus:,Un-synced
OutputRate:,60Hz
FilterProfile:,General
Measurement Mode:,Inertial data Mode - High Fidelity
StartTime: ,2022-03-25_11:11:52_726 EDT
© Xsens Technologies B. V. 2005-2021

PacketCounter,SampleTimeFine,dq_W,dq_X,dq_Y,dq_Z,dv[1],dv[2],dv[3],Status
1,3587439996,0.000000,0.000000,0.000000,0.000000,0.000000,0.000000,0.000000,0
2,3587456663,1.000000,-0.000272,0.000159,-0.000026,-0.009836,0.009454,0.161634,0
3,3587473330,1.000000,-0.000509,0.000059,0.000365,-0.008314,0.006404,0.161223,0
4,3587489997,1.000000,-0.000665,0.000100,-0.000013,-0.007991,0.001676,0.162094,0
5,3587506664,1.000000,-0.000518,0.000302,-0.000501,-0.009660,0.004242,0.163467,0
6,3587523331,1.000000,-0.000412,0.000311,-0.000455,-0.011975,0.010082,0.166059,0
7,3587539998,1.000000,-0.000127,0.000113,0.000191,-0.013157,0.010012,0.166789,0
8,3587556665,1.000000,-0.000213,-0.000292,0.000491,-0.009148,0.003373,0.164722,0
9,3587573332,1.000000,-0.000498,-0.000793,-0.000250,-0.008414,-0.000150,0.162763,0
10,3587589999,0.999999,-0.000649,-0.000981,-0.000780,-0.008175,0.005535,0.160503,0
11,3587606666,0.999999,-0.000653,-0.000756,-0.000533,-0.010116,0.010736,0.159437,0
12,3587623333,1.000000,-0.000370,-0.000010,0.000068,-0.010692,0.008571,0.159692,0
13,3587640000,1.000000,-0.000231,0.000400,-0.000007,-0.008412,0.003353,0.161996,0
14,3587656667,1.000000,-0.000225,0.000141,-0.000583,-0.010013,0.005834,0.165138,0
15,3587673334,1.000000,-0.000253,-0.000320,-0.000346,-0.011470,0.011690,0.164537,0
16,3587690001,1.000000,-0.000546,-0.000528,0.000183,-0.008432,0.010328,0.161261,0
17,3587706668,1.000000,-0.000830,-0.000264,0.000130,-0.008089,0.005362,0.159223,0
18,3587723335,0.999999,-0.001097,0.000020,-0.000189,-0.008019,0.004532,0.160657,0
19,3587740002,1.000000,-0.000897,0.000224,-0.000247,-0.009537,0.007338,0.164906,0
20,3587756669,1.000000,-0.000474,0.000126,0.000464,-0.010476,0.008884,0.165806,0
21,3587773336,0.999999,-0.000451,-0.000005,0.000951,-0.008827,0.004479,0.163992,0
22,3587790003,0.999999,-0.000767,-0.000063,0.000760,-0.007014,-0.000914,0.162357,0
23,3587806670,0.999999,-0.001121,-0.000283,0.000169,-0.008087,-0.002671,0.161786,0
24,3587823337,0.999999,-0.001092,-0.000244,-0.000059,-0.008708,-0.001260,0.161490,0
25,3587840004,0.999999,-0.001177,-0.000169,-0.000139,-0.008044,0.000532,0.161047,0
26,3587856671,1.000000,-0.000974,-0.000045,-0.000047,-0.008407,0.001037,0.161887,0
27,3587873338,1.000000,-0.000555,0.000298,0.000079,-0.008273,0.002146,0.162298,0
28,3587890005,1.000000,-0.000897,0.000272,0.000087,-0.008185,0.003977,0.163087,0
29,3587906672,0.999999,-0.001642,-0.000279,-0.000039,-0.008616,0.002762,0.164989,0
30,3587923339,0.999998,-0.001850,-0.000777,-0.000205,-0.009511,0.001611,0.165032,0
31,3587940006,0.999998,-0.001653,-0.000849,-0.000184,-0.008920,0.001295,0.161605,0
32,3587956673,0.999998,-0.001816,-0.000444,-0.000251,-0.007405,0.000920,0.158573,0
33,3587973340,0.999998,-0.001941,0.000279,-0.000323,-0.007770,0.000350,0.158761,0
34,3587990007,0.999998,-0.001710,0.000694,-0.000286,-0.008542,-0.000185,0.162236,0
35,3588006674,0.999999,-0.000860,0.000716,0.000142,-0.009216,-0.001118,0.164143,0
36,3588023341,1.000000,-0.000405,0.000342,0.000285,-0.008369,-0.003106,0.164329,0
37,3588040008,1.000000,-0.000691,-0.000235,-0.000062,-0.007535,-0.002599,0.161852,0
38,3588056675,0.999999,-0.001163,-0.000354,-0.000269,-0.006710,-0.001249,0.158752,0
39,3588073342,0.999999,-0.001432,-0.000102,-0.000360,-0.005964,-0.000506,0.155394,0
40,3588090009,0.999998,-0.001735,0.000557,-0.000334,-0.005993,-0.000057,0.155747,0
41,3588106676,0.999998,-0.001630,0.000835,-0.000170,-0.007245,-0.002120,0.160563,0
42,3588123343,1.000000,-0.000229,0.000654,0.000187,-0.009166,-0.004461,0.164783,0
43,3588140010,1.000000,0.000725,0.000243,0.000586,-0.007935,-0.003531,0.162572,0
44,3588156677,1.000000,0.000128,0.000189,0.000394,-0.005611,-0.005115,0.158129,0
45,3588173344,1.000000,-0.000784,0.000458,-0.000401,-0.006146,-0.005869,0.159198,0
46,3588190011,0.999999,-0.001015,0.000740,-0.000793,-0.008422,-0.000216,0.162968,0
47,3588206678,0.999999,-0.001117,0.000384,-0.000307,-0.010707,0.004222,0.166700,0
48,3588223345,1.000000,-0.000695,-0.000181,0.000406,-0.011291,-0.000707,0.167590,0
49,3588240012,1.000000,-0.000227,-0.000351,0.000591,-0.008382,-0.005046,0.163726,0
50,3588256679,1.000000,-0.000392,-0.000359,0.000191,-0.007369,-0.006204,0.159807,0
51,3588273346,1.000000,-0.000695,-0.000061,-0.000008,-0.007028,-0.005306,0.158611,0
52,3588290013,0.999999,-0.000995,0.000195,-0.000034,-0.008012,-0.005197,0.159732,0
53,3588306680,0.999999,-0.001485,0.000130,-0.000059,-0.008675,-0.006784,0.160596,0
54,3588323347,0.999999,-0.001325,0.000183,-0.000259,-0.009342,-0.009325,0.162255,0
55,3588340014,1.000000,-0.000264,0.000549,-0.000368,-0.010149,-0.008948,0.162777,0
56,3588356681,1.000000,0.000529,0.000726,-0.000251,-0.010588,-0.004965,0.163095,0
57,3588373348,1.000000,0.000563,0.000483,-0.000059,-0.012047,-0.001934,0.164376,0
58,3588390015,1.000000,0.000811,0.000080,0.000398,-0.012264,-0.003832,0.162810,0
59,3588406682,1.000000,0.000872,-0.000214,0.000373,-0.007681,-0.007189,0.158287,0
60,3588423349,1.000000,0.000185,-0.000385,-0.000293,-0.005108,-0.005645,0.154427,0
61,3588440016,1.000000,-0.000335,0.000052,-0.000501,-0.008294,-0.002788,0.154901,0
62,3588456683,1.000000,-0.000177,0.000776,-0.000205,-0.009924,-0.002089,0.159483,0
63,3588473350,0.999999,0.000414,0.001101,0.000108,-0.011361,-0.003076,0.163460,0
64,3588490017,0.999999,0.000647,0.001003,0.000233,-0.011487,-0.004424,0.166060,0
65,3588506684,1.000000,0.000576,0.000696,0.000103,-0.011882,-0.004378,0.166588,0
66,3588523351,1.000000,0.000647,0.000306,0.000097,-0.011801,-0.003349,0.166963,0
67,3588540018,1.000000,0.000596,-0.000095,0.000389,-0.009387,-0.004404,0.164149,0
68,3588556685,1.000000,-0.000177,-0.000576,-0.000055,-0.008200,-0.008012,0.162081,0
69,3588573352,1.000000,-0.000275,-0.000586,-0.000659,-0.009735,-0.007545,0.161854,0
70,3588590019,1.000000,0.000771,-0.000145,-0.000566,-0.011238,-0.005833,0.162413,0
71,3588606686,0.999998,0.002139,0.000362,-0.000224,-0.010939,-0.004371,0.163943,0
72,3588623353,0.999995,0.003142,0.000315,0.000120,-0.009592,-0.003749,0.164569,0
73,3588640020,0.999994,0.003561,-0.000008,-0.000109,-0.010399,-0.002033,0.165296,0
74,3588656687,0.999990,0.004388,-0.000226,0.000032,-0.012310,0.001945,0.166711,0
75,3588673354,0.999987,0.004927,-0.000749,0.000456,-0.009875,0.006011,0.165126,0
76,3588690021,0.999987,0.004860,-0.001224,0.000470,-0.008940,0.009393,0.164436,0
77,3588706688,0.999980,0.006098,-0.001201,0.001213,-0.009920,0.011337,0.164271,0
78,3588723355,0.999965,0.008005,-0.000866,0.002334,-0.008496,0.008061,0.161700,0
79,3588740022,0.999951,0.009604,-0.000664,0.002390,-0.006208,0.001007,0.160401,0
80,3588756689,0.999949,0.009941,-0.000555,0.001474,-0.005532,0.005089,0.155949,0
81,3588773356,0.999954,0.009589,0.000060,0.000913,-0.007544,0.008932,0.152900,0
82,3588790023,0.999952,0.009665,0.001320,0.000207,-0.005023,0.010818,0.150809,0
83,3588806690,0.999950,0.009607,0.002583,-0.000712,-0.005580,0.023772,0.160675,0
84,3588823357,0.999947,0.010079,0.002026,-0.000135,-0.015006,0.036966,0.173961,0
85,3588840024,0.999920,0.012475,0.000089,0.001954,-0.017580,0.032602,0.181749,0
86,3588856691,0.999874,0.015485,-0.001854,0.003031,-0.013213,0.022357,0.171676,0
87,3588873358,0.999865,0.016023,-0.002963,0.002099,-0.008166,0.014503,0.150926,0
88,3588890025,0.999884,0.015144,-0.001609,-0.000648,-0.002814,0.011784,0.135553,0
89,3588906692,0.999857,0.016341,0.002051,-0.003882,-0.003857,0.034504,0.138204,0
90,3588923359,0.999838,0.017290,0.003124,-0.004032,-0.005813,0.068708,0.156825,0
91,3588940026,0.999881,0.015421,-0.000616,0.000273,-0.018306,0.058924,0.162345,0
92,3588956693,0.999771,0.021007,-0.002545,0.003245,-0.018008,0.102410,0.176505,0
93,3588973360,0.999657,0.025189,-0.005565,0.004426,-0.015697,0.046719,0.145394,0
94,3588990027,0.999732,0.022534,-0.005278,0.000806,0.004723,0.033354,0.112187,0
95,3589006694,0.999812,0.018265,-0.001379,-0.006314,0.010121,0.062824,0.108985,0
96,3589023361,0.999852,0.015479,0.000978,-0.007421,-0.009617,0.110457,0.122267,0
97,3589040028,0.999921,0.011917,0.000804,-0.003966,-0.011471,0.130713,0.132002,0
98,3589056695,0.999960,0.008878,0.000194,-0.001276,-0.009622,0.125003,0.134390,0
99,3589073362,0.999976,0.006922,-0.000228,0.000215,-0.009367,0.102278,0.131577,0
100,3589090029,0.999986,0.005204,0.000290,-0.000763,-0.004884,0.086074,0.126344,0
101,3589106696,0.999989,0.003413,0.000441,-0.003251,-0.002947,0.086390,0.132920,0
102,3589123363,0.999988,0.002854,-0.000602,-0.003981,-0.009940,0.107151,0.135272,0
103,3589140030,0.999995,0.001244,-0.001054,-0.002738,-0.008431,0.122509,0.130607,0
104,3589156697,0.999996,-0.001782,-0.001132,-0.001857,-0.006469,0.128299,0.127500,0
105,3589173364,0.999987,-0.005086,-0.000491,-0.000579,-0.009872,0.126886,0.125476,0
106,3589190031,0.999959,-0.009009,0.000057,0.000261,-0.009274,0.106665,0.124145,0
107,3589206698,0.999925,-0.012166,0.000284,-0.001479,-0.003926,0.081782,0.126962,0
108,3589223365,0.999887,-0.014441,0.000347,-0.004154,-0.006277,0.084976,0.131507,0
109,3589240032,0.999838,-0.017339,-0.000002,-0.004748,-0.008778,0.099388,0.134782,0
110,3589256699,0.999764,-0.021272,-0.000325,-0.004354,-0.011177,0.108469,0.134918,0
111,3589273366,0.999683,-0.024992,0.000034,-0.003185,-0.013849,0.099708,0.137322,0
112,3589290033,0.999642,-0.026595,0.001338,-0.002582,-0.016671,0.078842,0.144019,0
113,3589306700,0.999618,-0.027408,0.001817,-0.002975,-0.015642,0.062909,0.154515,0
114,3589323367,0.999602,-0.027990,0.000786,-0.003569,-0.015205,0.053458,0.163443,0
115,3589340034,0.999610,-0.027679,-0.000702,-0.003550,-0.018794,0.045615,0.169159,0
116,3589356701,0.999613,-0.027490,-0.002277,-0.003502,-0.019832,0.042906,0.170176,0
117,3589373368,0.999631,-0.026832,-0.003503,-0.002571,-0.019202,0.042506,0.171337,0
118,3589390035,0.999649,-0.026026,-0.004841,-0.001044,-0.016188,0.033692,0.165332,0
119,3589406702,0.999677,-0.024964,-0.004834,-0.000084,-0.009990,0.018755,0.152713,0
120,3589423369,0.999716,-0.023649,-0.002827,0.000331,-0.007667,0.009775,0.145828,0
121,3589440036,0.999734,-0.023031,-0.001268,0.000604,-0.006067,0.009227,0.144573,0
122,3589456703,0.999746,-0.022533,-0.000550,0.000718,-0.003341,-0.002994,0.147114,0
123,3589473370,0.999747,-0.022479,-0.000602,0.000733,-0.007230,-0.020787,0.153714,0
124,3589490037,0.999716,-0.023806,-0.000514,0.000881,-0.010229,-0.008328,0.156649,0
125,3589506704,0.999644,-0.026592,-0.001616,0.001434,-0.011271,-0.017956,0.160227,0
126,3589523371,0.999581,-0.028699,-0.003583,0.000986,-0.010429,-0.036214,0.155466,0
127,3589540038,0.999590,-0.028176,-0.004981,-0.000750,-0.006856,-0.039906,0.145395,0
128,3589556705,0.999596,-0.028249,-0.003105,-0.000253,-0.002473,-0.065723,0.133280,0
129,3589573372,0.999558,-0.029599,-0.002728,0.000121,-0.002159,-0.064608,0.133978,0
130,3589590039,0.999594,-0.028414,-0.002079,0.000346,-0.005239,-0.073506,0.142012,0
131,3589606706,0.999629,-0.027087,-0.002544,0.000960,-0.007476,-0.083747,0.148070,0
132,3589623373,0.999719,-0.023322,-0.004162,0.000669,-0.007412,-0.105156,0.147426,0
133,3589640040,0.999753,-0.021328,-0.006250,-0.000172,-0.001776,-0.118349,0.132851,0
134,3589656707,0.999804,-0.018830,-0.006014,-0.001217,0.002290,-0.112956,0.114139,0
135,3589673374,0.999843,-0.017279,-0.003600,-0.001397,0.004696,-0.098441,0.104298,0
136,3589690041,0.999844,-0.017601,-0.001644,-0.000352,0.003479,-0.093507,0.107081,0
137,3589706708,0.999805,-0.019718,-0.001070,0.000303,0.003292,-0.102042,0.108559,0
138,3589723375,0.999763,-0.021734,-0.001106,-0.000091,0.006234,-0.120878,0.108440,0
139,3589740042,0.999790,-0.020371,-0.001573,-0.001699,0.006489,-0.142477,0.104069,0
140,3589756709,0.999877,-0.015499,-0.000596,-0.002277,0.007900,-0.150047,0.090732,0
141,3589773376,0.999956,-0.008991,0.001874,-0.002144,0.007058,-0.140622,0.090765,0
142,3589790043,0.999990,-0.003205,0.002891,-0.001026,0.005872,-0.128954,0.093646,0
143,3589806710,0.999997,0.000768,0.002416,0.000157,0.005154,-0.124059,0.096230,0
144,3589823377,0.999992,0.003479,0.001944,0.000993,0.002519,-0.128011,0.096982,0
145,3589840044,0.999983,0.005582,0.001115,0.001096,0.002692,-0.135550,0.095062,0
146,3589856711,0.999972,0.007465,0.000748,0.000326,0.005793,-0.142315,0.090607,0
147,3589873378,0.999929,0.011879,0.000775,-0.000264,0.002637,-0.144406,0.095726,0
148,3589890045,0.999791,0.020449,0.000425,0.000604,0.002105,-0.146446,0.097527,0
149,3589906712,0.999597,0.028307,0.001339,0.001405,0.004241,-0.139376,0.091103,0
150,3589923379,0.999466,0.032506,0.003083,0.001588,0.005754,-0.122237,0.096550,0
151,3589940046,0.999494,0.031534,0.003954,0.001469,0.004285,-0.095410,0.111859,0
152,3589956713,0.999597,0.028134,0.003056,0.002377,-0.002795,-0.081570,0.133398,0
153,3589973380,0.999660,0.025845,0.001224,0.003344,-0.003826,-0.090383,0.144645,0
154,3589990047,0.999676,0.025295,0.000018,0.002832,-0.002440,-0.097918,0.145681,0
155,3590006714,0.999664,0.025849,-0.000297,0.001931,-0.003482,-0.086480,0.140190,0
156,3590023381,0.999710,0.024036,0.000512,0.001569,-0.001105,-0.072111,0.142352,0
157,3590040048,0.999768,0.021530,0.000108,0.001155,-0.000872,-0.065762,0.146735,0
158,3590056715,0.999839,0.017937,-0.000134,0.000229,-0.000362,-0.055753,0.147861,0
159,3590073382,0.999896,0.014440,0.000193,-0.000076,-0.002822,-0.045042,0.154038,0
160,3590090049,0.999887,0.014988,-0.000192,0.000979,-0.006730,-0.044538,0.169229,0
161,3590106716,0.999809,0.019299,-0.001520,0.002647,-0.006761,-0.057540,0.166586,0
162,3590123383,0.999757,0.021884,-0.001851,0.001819,0.000203,-0.058606,0.147583,0
163,3590140050,0.999808,0.019606,-0.000346,-0.000448,0.003652,-0.031944,0.138709,0
164,3590156717,0.999902,0.013893,0.001204,-0.001243,0.000684,-0.010499,0.144469,0
165,3590173384,0.999956,0.009154,0.001429,-0.001082,-0.001098,-0.008274,0.157297,0
166,3590190051,0.999977,0.006406,0.001565,-0.001387,-0.002296,-0.006890,0.165413,0
167,3590206718,0.999987,0.004976,0.000904,-0.001082,-0.007367,0.000254,0.175493,0
168,3590223385,0.999988,0.004743,-0.000743,0.000672,-0.010841,-0.000605,0.176111,0
169,3590240052,0.999985,0.005125,-0.001254,0.001600,-0.006978,-0.014178,0.164754,0
170,3590256719,0.999991,0.004199,-0.000677,0.000471,-0.001326,-0.019813,0.154914,0
171,3590273386,0.999998,0.001618,-0.000149,-0.001225,0.001358,-0.015108,0.150520,0
172,3590290053,0.999997,-0.000022,0.000656,-0.002205,-0.000249,-0.007249,0.154463,0
173,3590306720,0.999998,-0.000553,0.001127,-0.001620,-0.002354,-0.000134,0.162326,0
174,3590323387,1.000000,-0.000068,0.000935,-0.000269,-0.003932,-0.000317,0.164300,0
175,3590340054,0.999999,0.000793,0.001022,0.000600,-0.003066,-0.004545,0.165534,0
176,3590356721,0.999998,0.001153,0.001026,0.000891,-0.003984,-0.005628,0.166008,0
177,3590373388,0.999999,0.000739,0.000599,0.000935,-0.003802,-0.008596,0.166675,0
178,3590390055,1.000000,0.000391,0.000249,0.000450,-0.002884,-0.016107,0.165280,0
179,3590406722,1.000000,0.000161,0.000366,-0.000353,-0.003090,-0.012399,0.164608,0
180,3590423389,1.000000,0.000139,0.000174,-0.000289,-0.005030,-0.007434,0.167208,0
181,3590440056,0.999999,0.001031,-0.000097,0.000301,-0.004614,-0.008432,0.167440,0
182,3590456723,0.999996,0.002831,-0.000365,0.000601,-0.004410,-0.011752,0.166744,0
183,3590473390,0.999989,0.004666,-0.000290,0.000836,-0.004288,-0.009531,0.163704,0
184,3590490057,0.999989,0.004595,-0.000089,0.000735,-0.002147,-0.008914,0.162585,0
185,3590506724,0.999985,0.005424,-0.000383,0.000133,-0.003910,-0.009720,0.168604,0
186,3590523391,0.999953,0.009681,-0.000853,0.000490,-0.007456,-0.005164,0.175484,0
187,3590540058,0.999838,0.017707,-0.001668,0.002642,-0.011230,0.001304,0.182734,0
188,3590556725,0.999709,0.023344,-0.003324,0.005055,-0.006584,0.010302,0.170956,0
189,3590573392,0.999707,0.023334,-0.003793,0.005225,0.000575,0.011958,0.151155,0
190,3590590059,0.999803,0.019339,-0.002781,0.003454,0.006154,0.015864,0.142130,0
191,3590606726,0.999893,0.014389,-0.002096,0.001694,0.004223,0.023428,0.143890,0
192,3590623393,0.999941,0.010695,-0.001907,0.000081,0.002140,0.030729,0.148976,0
193,3590640060,0.999934,0.011433,-0.000452,-0.000773,0.000264,0.044346,0.163752,0
194,3590656727,0.999868,0.016180,-0.001178,0.000294,-0.004109,0.040640,0.170618,0
195,3590673394,0.999818,0.018912,-0.002139,0.001591,0.000471,0.041368,0.160186,0
196,3590690061,0.999846,0.017371,-0.002513,0.000377,0.006319,0.039372,0.146127,0
197,3590706728,0.999859,0.016569,-0.002344,-0.001629,0.006264,0.039081,0.145921,0
198,3590723395,0.999853,0.016717,-0.002139,-0.003201,0.006004,0.049532,0.140938,0
199,3590740062,0.999854,0.016567,-0.001003,-0.004041,0.004055,0.058358,0.143260,0
200,3590756729,0.999825,0.018564,-0.000654,-0.002268,0.000963,0.087443,0.152314,0
201,3590773396,0.999813,0.019120,-0.002435,-0.001649,0.003033,0.075543,0.139140,0
202,3590790063,0.999847,0.016773,-0.003385,-0.003604,0.007561,0.073526,0.119200,0
203,3590806730,0.999898,0.013109,-0.001385,-0.005481,0.007808,0.102503,0.105045,0
204,3590823397,0.999940,0.010304,0.001847,-0.003141,0.004002,0.120138,0.108994,0
205,3590840064,0.999942,0.009804,0.004341,-0.000738,0.003737,0.102454,0.118725,0
206,3590856731,0.999941,0.009476,0.005243,-0.001107,0.008023,0.088865,0.132152,0
207,3590873398,0.999958,0.008048,0.003158,-0.003084,0.002790,0.100274,0.141618,0
208,3590890065,0.999982,0.005060,0.000601,-0.003205,-0.001481,0.124393,0.142456,0
209,3590906732,0.999999,0.000680,-0.000851,-0.001315,-0.000954,0.131362,0.134928,0
210,3590923399,0.999983,-0.005749,-0.001223,-0.000600,0.001458,0.113977,0.127676,0
211,3590940066,0.999922,-0.012261,-0.000998,-0.002222,0.000604,0.098379,0.126796,0
212,3590956733,0.999820,-0.018486,-0.000856,-0.004258,-0.000702,0.102349,0.132487,0
213,3590973400,0.999739,-0.022338,-0.001191,-0.004700,-0.003915,0.109585,0.137449,0
214,3590990067,0.999680,-0.024920,-0.000969,-0.004140,-0.003290,0.115750,0.135069,0
215,3591006734,0.999627,-0.027198,0.000476,-0.002422,-0.002253,0.118854,0.132839,0
216,3591023401,0.999530,-0.030608,0.001809,-0.000392,-0.003461,0.112476,0.135272,0
217,3591040068,0.999379,-0.035146,0.002051,0.001305,-0.006243,0.088204,0.148303,0
218,3591056735,0.999286,-0.037742,0.000898,0.001525,-0.006678,0.044640,0.155378,0
219,3591073402,0.999282,-0.037874,-0.000051,-0.000779,-0.000637,0.012639,0.153793,0
220,3591090069,0.999339,-0.036243,0.000507,-0.002737,-0.000334,0.020874,0.148978,0
221,3591106736,0.999392,-0.034811,0.001364,-0.001127,-0.004695,0.043683,0.147450,0
222,3591123403,0.999410,-0.034088,0.002430,0.003570,-0.011319,0.046489,0.148639,0
223,3591140070,0.999379,-0.034284,0.002713,0.007612,-0.010599,0.007630,0.153898,0
224,3591156737,0.999491,-0.031609,0.001108,0.004218,-0.011488,-0.036237,0.163457,0
225,3591173404,0.999499,-0.031635,0.001335,-0.000299,0.000130,-0.097470,0.146219,0
226,3591190071,0.999366,-0.035237,0.000304,-0.005062,-0.001232,-0.050609,0.145795,0
227,3591206738,0.999260,-0.037999,0.000598,-0.005868,-0.010324,-0.016652,0.147416,0
228,3591223405,0.999231,-0.039149,0.000294,-0.002070,-0.016826,-0.014242,0.152240,0
229,3591240072,0.999334,-0.036429,-0.001298,0.001902,-0.012562,-0.063822,0.155831,0
230,3591256739,0.999489,-0.031718,-0.003708,0.001420,-0.005973,-0.114001,0.144494,0
231,3591273406,0.999585,-0.028467,-0.003999,-0.002115,-0.000853,-0.120958,0.127243,0
232,3591290073,0.999623,-0.026995,-0.003078,-0.003932,-0.002244,-0.103300,0.121025,0
233,3591306740,0.999611,-0.027364,-0.003561,-0.003944,-0.002017,-0.089436,0.116620,0
234,3591323407,0.999567,-0.029010,-0.003586,-0.003410,0.000859,-0.092596,0.110789,0
235,3591340074,0.999552,-0.029596,-0.003581,-0.002521,0.002683,-0.103377,0.106771,0
236,3591356741,0.999637,-0.026619,-0.003746,-0.001661,0.001327,-0.122645,0.105483,0
237,3591373408,0.999790,-0.019988,-0.004248,-0.001246,0.002556,-0.134334,0.095854,0
238,3591390075,0.999936,-0.010796,-0.003278,-0.000407,0.001870,-0.156778,0.082933,0
239,3591406742,0.999996,-0.002858,-0.000340,0.000146,0.005201,-0.155906,0.068477,0
240,3591423409,0.999994,0.002282,0.002657,0.000386,0.005264,-0.147336,0.075740,0
241,3591440076,0.999972,0.006550,0.003473,0.000754,0.001997,-0.139578,0.087355,0
242,3591456743,0.999957,0.008649,0.003286,0.000915,0.002994,-0.140380,0.090532,0
243,3591473410,0.999935,0.010744,0.003712,0.000642,0.003005,-0.143505,0.095673,0
244,3591490077,0.999895,0.013956,0.003820,0.000243,0.000154,-0.142297,0.101872,0
245,3591506744,0.999828,0.018165,0.003614,0.000482,-0.003814,-0.136624,0.119287,0
246,3591523411,0.999677,0.025306,0.001189,0.002079,-0.009303,-0.129861,0.130711,0
247,3591540078,0.999507,0.031105,-0.001819,0.003860,-0.005119,-0.125830,0.127239,0
248,3591556745,0.999400,0.034188,-0.003357,0.004347,0.001752,-0.120004,0.110742,0
249,3591573412,0.999407,0.034160,-0.002287,0.003589,0.007227,-0.110209,0.099517,0
250,3591590079,0.999507,0.031308,0.000544,0.002366,0.007120,-0.094514,0.103097,0
251,3591606746,0.999586,0.028579,0.002799,0.001676,0.001490,-0.082103,0.124892,0
252,3591623413,0.999592,0.028341,0.002862,0.002001,-0.003439,-0.071067,0.145534,0
253,3591640080,0.999590,0.028482,0.001463,0.002713,-0.006758,-0.065326,0.155383,0
254,3591656747,0.999630,0.027068,0.000210,0.002590,-0.005117,-0.064777,0.159064,0
255,3591673414,0.999633,0.026992,-0.000608,0.002189,-0.005583,-0.057199,0.157567,0
256,3591690081,0.999689,0.024877,-0.001155,0.001290,-0.006263,-0.047302,0.156479,0
257,3591706748,0.999755,0.022052,-0.001772,0.000634,-0.003295,-0.026640,0.159521,0
258,3591723415,0.999802,0.019848,-0.001575,0.000122,-0.005657,-0.021784,0.156983,0
259,3591740082,0.999863,0.016527,-0.000844,0.000210,-0.003623,-0.016482,0.158230,0
260,3591756749,0.999878,0.015619,-0.000555,0.000450,-0.001926,-0.016623,0.169387,0
261,3591773416,0.999849,0.017286,-0.001075,0.001012,-0.004177,-0.013599,0.166689,0
262,3591790083,0.999841,0.017726,-0.001578,0.000906,0.000594,-0.005952,0.162803,0
263,3591806750,0.999853,0.017004,-0.001738,0.001411,0.001255,0.009105,0.155012,0
264,3591823417,0.999914,0.012948,-0.001451,0.001721,0.004427,0.019675,0.148503,0
265,3591840084,0.999960,0.008819,-0.000942,0.001035,0.003690,0.021771,0.149583,0
266,3591856751,0.999991,0.004279,-0.000271,0.000182,0.002541,0.025628,0.152294,0
267,3591873418,1.000000,-0.000012,0.000216,-0.000467,0.001076,0.022055,0.155006,0
268,3591890085,0.999997,-0.002325,0.000483,-0.000721,-0.000797,0.019632,0.160164,0
269,3591906752,0.999996,-0.002428,0.001085,-0.000063,-0.001510,0.017709,0.159575,0
270,3591923419,0.999996,-0.002564,0.001369,0.000072,0.000443,0.007424,0.161735,0
271,3591940086,0.999997,-0.001771,0.001866,-0.000311,-0.000883,0.005682,0.163605,0
272,3591956753,0.999996,-0.001596,0.002090,-0.000564,-0.004826,0.010937,0.169119,0
273,3591973420,0.999997,-0.001809,0.001602,-0.000113,-0.007441,0.012875,0.175211,0
274,3591990087,0.999998,-0.002123,0.000244,0.000223,-0.007069,0.012886,0.179409,0
275,3592006754,0.999996,-0.002263,-0.001471,0.000627,-0.006592,0.012160,0.176358,0
276,3592023421,0.999995,-0.001623,-0.002305,0.001073,-0.004084,0.007830,0.168916,0
277,3592040088,0.999997,-0.000814,-0.001828,0.001198,-0.001260,0.003547,0.156522,0
278,3592056755,0.999999,-0.000760,-0.000673,0.000598,0.001991,-0.003788,0.150046,0
279,3592073422,0.999999,-0.000715,0.000519,-0.001028,0.003236,-0.005316,0.153365,0
280,3592090089,0.999997,-0.000496,0.000910,-0.001985,0.000913,0.007116,0.159852,0
281,3592106756,0.999999,-0.000810,0.000341,-0.001357,-0.001954,0.020146,0.162582,0
282,3592123423,0.999999,-0.001234,-0.000293,-0.000284,-0.002935,0.020433,0.160078,0
283,3592140090,0.999999,-0.001271,-0.000161,0.000424,-0.000358,0.012542,0.154193,0
284,3592156757,0.999999,-0.000933,0.000453,0.000236,0.000381,0.001427,0.153586,0
285,3592173424,0.999999,0.000365,0.000947,-0.000373,-0.000067,-0.006937,0.158660,0
286,3592190091,0.999998,0.001766,0.000550,-0.001245,-0.000564,-0.003661,0.163103,0
287,3592206758,0.999991,0.003958,-0.000288,-0.001191,-0.003476,0.006292,0.162136,0
288,3592223425,0.999976,0.006888,-0.000070,-0.000093,-0.004309,0.011992,0.157202,0
289,3592240092,0.999961,0.008768,0.000953,0.000628,-0.004442,0.013559,0.152883,0
290,3592256759,0.999946,0.010185,0.002039,0.000213,-0.001984,0.013883,0.161929,0
291,3592273426,0.999922,0.012370,0.001604,0.000080,-0.005298,0.017926,0.177009,0
292,3592290093,0.999865,0.016341,-0.000781,0.001187,-0.006862,0.021087,0.183636,0
293,3592306760,0.999801,0.019618,-0.002992,0.002245,-0.005922,0.020232,0.174738,0
294,3592323427,0.999772,0.020904,-0.003882,0.001889,-0.001709,0.017505,0.158072,0
295,3592340094,0.999784,0.020415,-0.003835,-0.000032,0.003413,0.021083,0.140982,0
296,3592356761,0.999810,0.019185,-0.002621,-0.002413,0.004586,0.034794,0.130650,0
297,3592373428,0.999867,0.016133,-0.000520,-0.002244,0.002208,0.042435,0.127907,0
298,3592390095,0.999821,0.018822,0.002081,0.000202,-0.004943,0.100279,0.151244,0
299,3592406762,0.999803,0.019706,0.001158,0.001999,-0.006514,0.066965,0.152323,0
300,3592423429,0.999817,0.019063,0.000303,0.001483,0.000651,0.051453,0.151122,0
301,3592440096,0.999825,0.018609,-0.001137,-0.001189,0.001002,0.057715,0.151217,0
302,3592456763,0.999839,0.017412,-0.003375,-0.002783,0.001500,0.079939,0.145410,0
303,3592473430,0.999831,0.017654,-0.004706,-0.001918,-0.002005,0.097676,0.136028,0
304,3592490097,0.999852,0.016792,-0.003732,-0.000009,0.002003,0.103160,0.119775,0
305,3592506764,0.999895,0.014468,-0.001096,-0.000069,0.007328,0.098548,0.114549,0
306,3592523431,0.999913,0.013135,0.001061,-0.001121,0.003846,0.099481,0.123817,0
307,3592540098,0.999934,0.011355,0.000732,-0.001458,0.000413,0.104860,0.132898,0
308,3592556765,0.999964,0.007853,-0.001801,-0.002640,0.004826,0.110653,0.130105,0
309,3592573432,0.999978,0.004820,-0.002881,-0.003543,0.003045,0.125826,0.125946,0
310,3592590099,0.999993,0.002299,-0.002464,-0.001748,0.003460,0.142141,0.114232,0
311,3592606766,1.000000,-0.000619,-0.000489,0.000365,0.006137,0.139939,0.107861,0
312,3592623433,0.999994,-0.002091,0.002462,0.001333,0.004626,0.124471,0.113385,0
313,3592640100,0.999982,-0.004599,0.003764,0.001223,0.001511,0.111106,0.126051,0
314,3592656767,0.999966,-0.007688,0.003082,-0.000151,0.001187,0.099103,0.139398,0
315,3592673434,0.999924,-0.012165,0.000218,-0.002191,0.002773,0.104630,0.141634,0
316,3592690101,0.999810,-0.019037,-0.002620,-0.003379,0.003624,0.116882,0.128734,0
317,3592706768,0.999649,-0.026147,-0.002568,-0.003451,0.006284,0.118699,0.115243,0
318,3592723435,0.999510,-0.031123,0.000033,-0.003445,0.005268,0.110404,0.109611,0
319,3592740102,0.999413,-0.033918,0.003944,-0.002883,-0.002879,0.091816,0.125025,0
320,3592756769,0.999403,-0.033847,0.006437,-0.002622,-0.009904,0.067546,0.154039,0
321,3592773436,0.999464,-0.032194,0.004744,-0.003436,-0.011425,0.055311,0.180371,0
322,3592790103,0.999532,-0.030327,-0.000205,-0.003987,-0.009473,0.057409,0.185782,0
323,3592806770,0.999556,-0.029326,-0.004449,-0.002903,-0.006292,0.059769,0.167744,0
324,3592823437,0.999587,-0.028196,-0.005478,-0.001244,-0.002091,0.048513,0.148018,0
325,3592840104,0.999625,-0.027179,-0.003363,0.000275,-0.001934,0.038767,0.137877,0
326,3592856771,0.999622,-0.027408,-0.000761,0.001816,-0.000145,0.025192,0.135595,0
327,3592873438,0.999467,-0.032618,0.001214,0.000098,0.005569,0.010871,0.134004,0
328,3592890105,0.999216,-0.039397,0.002082,-0.003283,0.003088,-0.004733,0.151488,0
329,3592906772,0.999235,-0.038882,0.000611,-0.004197,-0.008855,-0.016682,0.173912,0
330,3592923439,0.999389,-0.034780,-0.001641,-0.002894,-0.010440,-0.033198,0.177026,0
331,3592940106,0.999495,-0.031384,-0.004059,-0.003030,-0.001401,-0.039184,0.156319,0
332,3592956773,0.999280,-0.037298,-0.005265,-0.004573,0.010143,-0.038692,0.123241,0
333,3592973440,0.998951,-0.045192,-0.004848,-0.005509,0.008556,-0.035768,0.113070,0
334,3592990107,0.998907,-0.046530,-0.003539,-0.002682,0.000888,-0.042588,0.116034,0
335,3593006774,0.999185,-0.040347,-0.001023,0.000446,0.007248,-0.086996,0.111216,0
336,3593023441,0.999429,-0.033698,0.000816,0.002220,0.003807,-0.114276,0.114389,0
337,3593040108,0.999647,-0.026346,0.001864,0.002769,0.002378,-0.123490,0.123324,0
338,3593056775,0.999756,-0.021925,-0.000756,0.002465,0.003888,-0.130398,0.122487,0
339,3593073442,0.999767,-0.021135,-0.004411,0.000889,0.004450,-0.138727,0.105003,0
340,3593090109,0.999752,-0.021931,-0.003812,-0.000838,0.008383,-0.133483,0.079293,0
341,3593106776,0.999762,-0.021762,-0.000386,-0.001124,0.007401,-0.125235,0.081321,0
342,3593123443,0.999853,-0.017048,0.001553,0.000864,0.002556,-0.126358,0.092240,0
343,3593140110,0.999935,-0.010989,0.001228,0.002939,-0.000036,-0.147223,0.107887,0
344,3593156777,0.999986,-0.003324,-0.001729,0.003633,-0.000341,-0.167510,0.101630,0
345,3593173444,0.999979,0.005352,-0.002029,0.003030,0.003473,-0.187076,0.079343,0
346,3593190111,0.999920,0.012579,0.001105,0.001157,0.007301,-0.182100,0.070407,0
347,3593206778,0.999768,0.021242,0.003453,0.000875,0.004697,-0.158482,0.085398,0
348,3593223445,0.999602,0.027827,0.004044,0.002309,-0.001149,-0.139377,0.094056,0
349,3593240112,0.999509,0.030999,0.003257,0.003208,0.000438,-0.131920,0.104990,0
350,3593256779,0.999495,0.031614,0.001896,0.002727,-0.002017,-0.124947,0.119801,0
351,3593273446,0.999432,0.033574,-0.000028,0.002963,-0.006016,-0.116593,0.128881,0
352,3593290113,0.999384,0.034882,-0.002283,0.003093,-0.006489,-0.109901,0.129160,0
353,3593306780,0.999374,0.035119,-0.002841,0.003064,-0.001317,-0.096882,0.120977,0
354,3593323447,0.999433,0.033480,-0.001746,0.003191,0.001916,-0.085927,0.118506,0
355,3593340114,0.999482,0.032027,0.000453,0.003035,0.001617,-0.068982,0.124785,0
356,3593356781,0.999644,0.026576,0.001780,0.001701,-0.001417,-0.064380,0.140985,0
357,3593373448,0.999734,0.023021,0.000722,0.000967,-0.005370,-0.055735,0.147107,0
358,3593390115,0.999809,0.019538,0.000092,-0.000266,-0.005246,-0.045490,0.150471,0
359,3593406782,0.999795,0.020240,0.000671,0.000401,-0.011017,-0.038581,0.164693,0
360,3593423449,0.999648,0.026434,0.000423,0.002401,-0.012266,-0.034279,0.166002,0
361,3593440116,0.999557,0.029446,-0.000359,0.004225,-0.001962,-0.029481,0.159325,0
362,3593456783,0.999644,0.026501,-0.001039,0.003033,0.002696,-0.026518,0.146155,0
363,3593473450,0.999781,0.020927,-0.000547,-0.000564,0.001543,-0.023283,0.140101,0
364,3593490117,0.999882,0.014824,0.000948,-0.003920,-0.001363,-0.002025,0.144187,0
365,3593506784,0.999945,0.009629,0.001202,-0.003864,-0.007954,0.030590,0.163472,0
366,3593523451,0.999993,0.003430,-0.000213,-0.001552,-0.010850,0.065380,0.171067,0
367,3593540118,0.999994,0.002889,-0.001506,0.001536,-0.005990,0.045516,0.165000,0
368,3593556785,0.999996,0.001154,-0.001205,0.002461,-0.000089,0.008263,0.154384,0
369,3593573452,0.999999,-0.000027,0.000685,0.000881,0.003235,-0.005306,0.152483,0
370,3593590119,0.999998,-0.000420,0.001597,-0.001047,-0.002060,-0.012210,0.162278,0
371,3593606786,0.999998,-0.000368,0.001114,-0.001826,-0.005532,-0.000768,0.169851,0
372,3593623453,0.999999,-0.000316,0.000329,-0.001399,-0.007554,0.013101,0.173136,0
373,3593640120,1.000000,0.000809,0.000152,0.000404,-0.009226,0.014622,0.170172,0
374,3593656787,0.999998,0.000986,0.000400,0.001415,-0.005734,0.006047,0.166655,0
375,3593673454,0.999999,0.000439,0.000592,0.000791,-0.003305,0.003131,0.166229,0
376,3593690121,1.000000,-0.000753,0.000418,0.000064,-0.005947,0.004648,0.166573,0
377,3593706788,0.999996,-0.002867,-0.000290,-0.000582,-0.006363,0.001219,0.166540,0
378,3593723455,0.999988,-0.004459,-0.000833,-0.001887,-0.006949,0.000660,0.169763,0
379,3593740122,0.999985,-0.004804,-0.001413,-0.002146,-0.008792,0.010406,0.169114,0
380,3593756789,0.999986,-0.004822,-0.001960,-0.001086,-0.006146,0.013765,0.164579,0
381,3593773456,0.999994,-0.003243,-0.001565,0.000060,-0.004036,0.005516,0.159023,0
382,3593790123,0.999999,-0.001423,-0.000399,0.000793,-0.001667,-0.002989,0.153897,0
383,3593806790,1.000000,-0.000376,0.000592,0.000496,0.000184,-0.011160,0.152080,0
384,3593823457,0.999999,-0.000713,0.001057,-0.000835,0.002523,-0.010358,0.156677,0
385,3593840124,0.999998,-0.001156,0.000192,-0.001654,-0.001847,-0.002516,0.162398,0
386,3593856791,0.999998,-0.001170,-0.000892,-0.001340,-0.004234,0.004026,0.161439,0
387,3593873458,0.999999,0.000682,-0.000651,-0.000510,-0.004258,0.004283,0.158080,0
388,3593890125,0.999991,0.003999,0.000918,0.000697,-0.004937,-0.001814,0.159489,0
389,3593906792,0.999956,0.008987,0.002046,0.001636,-0.005946,-0.008701,0.165139,0
390,3593923459,0.999937,0.010992,0.001980,0.001290,-0.007187,-0.000696,0.166448,0
391,3593940126,0.999951,0.009836,0.000792,0.000656,-0.006111,0.014095,0.167998,0
392,3593956793,0.999966,0.008197,-0.000656,0.000794,-0.004900,0.021551,0.165953,0
393,3593973460,0.999956,0.009140,-0.001432,0.001222,-0.007977,0.012201,0.168832,0
394,3593990127,0.999877,0.015467,-0.001285,0.002382,-0.009185,0.005347,0.174954,0
395,3594006794,0.999728,0.022787,-0.002824,0.004046,-0.005040,0.010631,0.168990,0
396,3594023461,0.999657,0.025355,-0.004778,0.004440,0.000837,0.016442,0.148269,0
397,3594040128,0.999700,0.024025,-0.003899,0.002792,0.005774,0.019642,0.135276,0
398,3594056795,0.999737,0.022871,-0.001306,0.000640,0.004629,0.026666,0.134612,0
399,3594073462,0.999788,0.020495,-0.000388,-0.001751,0.002759,0.045838,0.142778,0
400,3594090129,0.999816,0.019112,-0.000825,-0.001700,-0.002308,0.064884,0.151966,0
401,3594106796,0.999745,0.022444,-0.002064,0.001008,-0.004102,0.090490,0.157750,0
402,3594123463,0.999614,0.027233,-0.002936,0.004662,-0.004106,0.078773,0.142433,0
403,3594140130,0.999593,0.027965,-0.002604,0.005075,0.007469,0.065077,0.122739,0
404,3594156797,0.999644,0.026595,-0.001220,0.001862,0.012026,0.062715,0.117351,0
405,3594173464,0.999685,0.025067,-0.000082,-0.001580,0.005478,0.079970,0.124468,0
406,3594190131,0.999681,0.025173,-0.000178,-0.002130,-0.003075,0.099657,0.132606,0
407,3594206798,0.999759,0.021823,-0.001695,-0.001432,-0.000282,0.113706,0.124653,0
408,3594223465,0.999898,0.013487,-0.003208,-0.003367,0.008663,0.125269,0.112029,0
409,3594240132,0.999968,0.005014,-0.002942,-0.005406,0.009349,0.136360,0.108039,0
410,3594256799,0.999990,-0.000076,-0.001533,-0.004306,0.003510,0.143779,0.110689,0
411,3594273466,0.999988,-0.004104,-0.000145,-0.002548,0.002984,0.130364,0.112141,0
412,3594290133,0.999972,-0.006708,0.001227,-0.003186,0.005815,0.113136,0.124329,0
413,3594306800,0.999971,-0.006260,0.000362,-0.004224,0.003123,0.119384,0.138350,0
414,3594323467,0.999976,-0.005841,-0.002094,-0.003083,0.002654,0.135643,0.135422,0
415,3594340134,0.999970,-0.006987,-0.002992,-0.001400,0.004910,0.140162,0.120029,0
416,3594356801,0.999938,-0.011058,-0.001503,-0.000509,0.006825,0.138585,0.108077,0
417,3594373468,0.999852,-0.017188,0.000588,-0.000486,0.005298,0.128441,0.110345,0
418,3594390135,0.999734,-0.022971,0.001891,-0.001177,-0.001809,0.110131,0.124382,0
419,3594406802,0.999628,-0.027073,0.001627,-0.002891,0.000425,0.094112,0.140844,0
420,3594423469,0.999549,-0.029550,-0.000421,-0.005266,0.001763,0.099186,0.149811,0
421,3594440136,0.999442,-0.032893,-0.002757,-0.005039,-0.000428,0.115613,0.144426,0
422,3594456803,0.999296,-0.037243,-0.003705,-0.002752,0.001312,0.121605,0.132529,0
423,3594473470,0.999252,-0.038603,-0.002086,0.000971,0.000464,0.101330,0.129017,0
424,3594490137,0.999243,-0.038679,0.000803,0.004203,-0.003870,0.057876,0.133964,0
425,3594506804,0.999256,-0.038349,0.001779,0.003804,0.000861,0.018793,0.144743,0
426,3594523471,0.999380,-0.035192,0.001129,-0.000318,0.005510,0.000325,0.155172,0
427,3594540138,0.999394,-0.034710,0.000986,-0.002222,0.004496,0.003443,0.154341,0
428,3594556805,0.999313,-0.037018,-0.000202,-0.001888,-0.001649,0.024006,0.153737,0
429,3594573472,0.999099,-0.042403,-0.001919,-0.000477,-0.002864,0.014727,0.147316,0
430,3594590139,0.999042,-0.043700,-0.002281,0.000863,-0.001385,-0.008403,0.144013,0
431,3594606806,0.999198,-0.039990,-0.001219,0.001735,-0.001299,-0.028480,0.140228,0
432,3594623473,0.999366,-0.035553,0.000829,0.001710,0.002338,-0.088529,0.132769,0
433,3594640140,0.999388,-0.034984,-0.000429,0.000118,0.005601,-0.092539,0.133049,0
434,3594656807,0.999437,-0.033395,0.000790,-0.003133,0.007483,-0.089006,0.122976,0
435,3594673474,0.999376,-0.034975,0.001612,-0.004667,0.005807,-0.073337,0.123865,0
436,3594690141,0.999322,-0.036562,0.000797,-0.004151,-0.001122,-0.074948,0.134410,0
437,3594706808,0.999357,-0.035751,-0.001244,-0.002568,-0.002903,-0.091560,0.133689,0
438,3594723475,0.999494,-0.031650,-0.002858,-0.001404,-0.000000,-0.116129,0.126850,0
439,3594740142,0.999697,-0.024305,-0.003639,-0.001416,0.003782,-0.130264,0.118104,0
440,3594756809,0.999855,-0.016599,-0.003792,-0.000839,0.008706,-0.133677,0.100917,0
441,3594773476,0.999910,-0.013132,-0.002790,-0.000827,0.009847,-0.127120,0.086534,0
442,3594790143,0.999933,-0.011451,-0.001220,-0.000749,0.008869,-0.128656,0.080832,0
443,3594806810,0.999963,-0.008521,0.001088,-0.000251,0.007290,-0.134810,0.081340,0
444,3594823477,0.999989,-0.003662,0.002995,0.000140,0.005837,-0.142023,0.089372,0
445,3594840144,0.999990,0.001892,0.003895,0.000895,0.005551,-0.146647,0.100348,0
446,3594856811,0.999959,0.008291,0.003285,0.001475,0.002097,-0.147354,0.110658,0
447,3594873478,0.999857,0.016576,0.002101,0.002733,0.001016,-0.148937,0.113421,0
448,3594890145,0.999658,0.025779,0.001537,0.004137,0.003736,-0.146319,0.106913,0
449,3594906812,0.999425,0.033512,0.001248,0.004984,0.005957,-0.139183,0.104699,0
450,3594923479,0.999272,0.037763,0.001006,0.005308,0.005450,-0.121063,0.103471,0
451,3594940146,0.999212,0.039329,0.000681,0.005301,0.005686,-0.106637,0.113221,0
452,3594956813,0.999222,0.039005,0.000784,0.005768,-0.001739,-0.090222,0.122124,0
453,3594973480,0.999275,0.037523,0.001229,0.006294,-0.003753,-0.081390,0.134003,0
454,3594990147,0.999336,0.035905,0.000980,0.006176,-0.004360,-0.076942,0.142859,0
455,3595006814,0.999459,0.032479,0.000766,0.005044,-0.007021,-0.064965,0.149048,0
456,3595023481,0.999557,0.029510,-0.000279,0.003834,-0.009469,-0.051251,0.154071,0
457,3595040148,0.999670,0.025475,-0.001198,0.003205,-0.006524,-0.039635,0.148874,0
458,3595056815,0.999765,0.021578,-0.000432,0.002128,-0.005227,-0.034090,0.149043,0
459,3595073482,0.999739,0.022762,0.000182,0.002045,-0.009286,-0.034708,0.161024,0
460,3595090149,0.999701,0.024301,-0.000242,0.002529,-0.013114,-0.025221,0.154732,0
461,3595106816,0.999739,0.022760,-0.000223,0.001936,-0.006736,-0.017168,0.150516,0
462,3595123483,0.999778,0.020978,0.000825,0.001858,-0.003426,-0.007574,0.147032,0
463,3595140150,0.999838,0.017869,0.002256,0.000544,-0.007233,-0.002291,0.151987,0
464,3595156817,0.999906,0.013527,0.002076,-0.001295,-0.007226,-0.000004,0.161237,0
465,3595173484,0.999954,0.009038,0.000092,-0.003261,-0.007953,0.011317,0.165988,0
466,3595190151,0.999983,0.004528,-0.001520,-0.003324,-0.007390,0.025262,0.160341,0
467,3595206818,0.999996,-0.001521,-0.002092,-0.001502,-0.008195,0.038220,0.148559,0
468,3595223485,0.999989,-0.004306,0.001183,-0.001282,-0.004528,0.047852,0.155849,0
469,3595240152,0.999990,-0.003747,0.002518,-0.000596,-0.010176,0.014915,0.163841,0
470,3595256819,0.999990,-0.002543,0.003511,-0.001092,-0.011894,0.004945,0.175962,0
471,3595273486,0.999993,-0.001670,0.002957,-0.001726,-0.013650,0.013021,0.185193,0
472,3595290153,0.999996,-0.002148,0.000391,-0.001560,-0.014018,0.024853,0.188160,0
473,3595306820,0.999991,-0.003520,-0.002149,-0.000713,-0.012239,0.027810,0.182710,0
474,3595323487,0.999984,-0.004506,-0.003242,0.000453,-0.008149,0.021404,0.169012,0
475,3595340154,0.999981,-0.005279,-0.003038,0.000247,-0.003273,0.005260,0.161339,0
476,3595356821,0.999986,-0.004938,-0.001702,-0.000771,-0.002052,-0.000502,0.155922,0
477,3595373488,0.999991,-0.004086,-0.000582,-0.001319,-0.002811,0.000480,0.155056,0
478,3595390155,0.999996,-0.002622,0.000550,-0.001218,-0.004293,0.005577,0.155673,0
479,3595406822,0.999997,-0.002049,0.001336,-0.000606,-0.006453,0.010461,0.161932,0
480,3595423489,0.999998,-0.001574,0.000580,0.000506,-0.010113,0.008098,0.168959,0
481,3595440156,0.999999,-0.001143,-0.000703,0.001044,-0.007755,0.001195,0.165279,0
482,3595456823,0.999999,-0.000981,-0.000961,0.000385,-0.005295,-0.002674,0.160404,0
483,3595473490,1.000000,-0.000638,-0.000454,-0.000289,-0.007726,0.000994,0.157176,0
484,3595490157,1.000000,0.000126,0.000372,0.000139,-0.009448,0.005504,0.157945,0
485,3595506824,1.000000,0.000411,0.000557,0.000583,-0.008930,0.004214,0.162375,0
486,3595523491,0.999999,0.000789,-0.000234,0.000788,-0.007308,0.002296,0.164531,0
487,3595540158,0.999999,0.000373,-0.001320,0.000681,-0.005343,0.003397,0.160959,0
488,3595556825,0.999999,0.000482,-0.001463,0.000778,-0.002908,0.003034,0.154509,0
489,3595573492,0.999999,0.000878,-0.000495,0.001120,-0.001816,0.001354,0.148864,0
490,3595590159,0.999999,0.000935,0.000919,0.001021,0.000738,-0.003129,0.150970,0
491,3595606826,0.999998,0.001083,0.001431,0.000361,-0.001160,-0.002169,0.157893,0
492,3595623493,0.999998,0.001553,0.001084,0.000259,-0.002966,0.003861,0.164409,0
493,3595640160,0.999997,0.002128,0.000569,0.000938,-0.005944,0.008752,0.165552,0
494,3595656827,0.999998,0.001666,0.000356,0.001370,-0.005128,0.007694,0.165221,0
495,3595673494,0.999998,0.001359,0.000512,0.001417,-0.009374,0.003420,0.165742,0
496,3595690161,0.999999,0.000852,0.000725,0.001295,-0.010694,-0.000385,0.167799,0
497,3595706828,1.000000,0.000245,0.000176,0.000474,-0.011278,-0.004057,0.168987,0
498,3595723495,1.000000,0.000403,-0.000215,-0.000325,-0.010456,-0.001413,0.168395,0
499,3595740162,0.999999,0.000730,-0.000668,-0.000175,-0.009456,0.005106,0.164621,0
500,3595756829,0.999999,0.000975,-0.000848,0.000304,-0.007722,0.007796,0.160954,0
501,3595773496,0.999999,0.001018,-0.000475,0.000666,-0.005799,0.007666,0.158006,0
502,3595790163,0.999999,0.000924,-0.000062,0.000797,-0.004094,0.005621,0.155717,0
503,3595806830,1.000000,0.000533,0.000546,0.000405,-0.003322,0.003015,0.156720,0
504,3595823497,1.000000,0.000387,0.000886,-0.000047,-0.005418,0.002936,0.160379,0
505,3595840164,0.999999,0.000702,0.000747,-0.000055,-0.006495,0.003474,0.164860,0
506,3595856831,0.999999,0.001466,0.000171,0.000155,-0.007496,0.005220,0.164895,0
507,3595873498,0.999998,0.001989,0.000081,0.000289,-0.007704,0.006405,0.164592,0
508,3595890165,0.999998,0.002074,0.000345,0.000377,-0.008882,0.012200,0.163618,0
509,3595906832,0.999999,0.000880,0.000224,0.000466,-0.009290,0.013694,0.165694,0
510,3595923499,1.000000,-0.000447,-0.000104,0.000229,-0.009474,0.011444,0.164871,0
511,3595940166,0.999999,-0.001263,-0.000059,-0.000301,-0.008880,0.008995,0.164916,0
512,3595956833,0.999999,-0.000904,0.000011,-0.000456,-0.008290,0.011029,0.165520,0
513,3595973500,1.000000,-0.000473,-0.000457,-0.000215,-0.007861,0.011301,0.164525,0